{
  "resourceType": "Bundle",
  "id": "compound-heterozygote",
  "entry": [
    {
      "fullUrl": "urn:uuid:16fdd5fc-e665-48af-99e4-48d603f3e12d",
      "request": {
        "method": "POST",
        "url": "Observation"
      },
      "resource": {
        "category": [
          {
            "coding": [
              {
                "code": "laboratory",
                "system": "http://terminology.hl7.org/CodeSystem/observation-category"
              }
            ]
          }
        ],
        "code": {
          "coding": [
            {
              "code": "69548-6",
              "system": "http://loinc.org",
              "display": "Genetic variant assessment"
            }
          ]
        },
        "component": [
          {
            "code": {
              "coding": [
                {
                  "code": "48004-6",
                  "system": "http://loinc.org",
                  "display": "DNA change (c.HGVS)"
                }
              ]
            },
            "valueCodeableConcept": {
              "coding": [
                {
                  "code": "NM_022787.3:c.769G>A",
                  "system": "http://varnomen.hgvs.org",
                  "display": "NM_022787.3:c.769G>A"
                }
              ]
            }
          }
        ],
        "meta": {
          "profile": [
            "http://hl7.org/fhir/uv/genomics-reporting/StructureDefinition/variant"
          ]
        },
        "resourceType": "Observation",
        "status": "final",
        "valueCodeableConcept": {
          "coding": [
            {
              "code": "LA9633-4",
              "system": "http://loinc.org",
              "display": "Present"
            }
          ]
        }
      }
    },
    {
      "fullUrl": "urn:uuid:16fdd5fc-e665-48af-99e4-48d603f3e12e",
      "request": {
        "method": "POST",
        "url": "Observation"
      },
      "resource": {
        "category": [
          {
            "coding": [
              {
                "code": "laboratory",
                "system": "http://terminology.hl7.org/CodeSystem/observation-category"
              }
            ]
          }
        ],
        "code": {
          "coding": [
            {
              "code": "69548-6",
              "system": "http://loinc.org",
              "display": "Genetic variant assessment"
            }
          ]
        },
        "component": [
          {
            "code": {
              "coding": [
                {
                  "code": "48004-6",
                  "system": "http://loinc.org",
                  "display": "DNA change (c.HGVS)"
                }
              ]
            },
            "valueCodeableConcept": {
              "coding": [
                {
                  "code": "NM_022787.3:c.53A>G",
                  "system": "http://varnomen.hgvs.org",
                  "display": "NM_022787.3:c.53A>G"
                }
              ]
            }
          }
        ],
        "meta": {
          "profile": [
            "http://hl7.org/fhir/uv/genomics-reporting/StructureDefinition/variant"
          ]
        },
        "resourceType": "Observation",
        "status": "final",
        "valueCodeableConcept": {
          "coding": [
            {
              "code": "LA9633-4",
              "system": "http://loinc.org",
              "display": "Present"
            }
          ]
        }
      }
    },
    {
      "fullUrl": "urn:uuid:16fdd5fc-e665-48af-99e4-48d603f3e12a",
      "request": {
        "method": "POST",
        "url": "Observation"
      },
      "resource": {
        "category": [
          {
            "coding": [
              {
                "code": "laboratory",
                "system": "http://terminology.hl7.org/CodeSystem/observation-category"
              }
            ]
          }
        ],
        "code": {
          "coding": [
            {
              "code": "69548-6",
              "system": "http://loinc.org",
              "display": "Genetic variant assessment"
            }
          ]
        },
        "component": [
          {
            "code": {
              "coding": [
                {
                  "code": "81263-6",
                  "system": "http://loinc.org",
                  "display": "Complex Variant Type"
                }
              ]
            },
            "valueCodeableConcept": {
              "coding": [
                {
                  "code": "LA26217-2",
                  "system": "http://loinc.org",
                  "display": "Compound heterozygous"
                }
              ]
            }
          }
        ],
        "hasMember": [
          {
            "display": "NM_022787.3:c.53A>G",
            "reference": "urn:uuid:16fdd5fc-e665-48af-99e4-48d603f3e12e"
          },
          {
            "display": "NM_022787.3:c.769G>A",
            "reference": "urn:uuid:16fdd5fc-e665-48af-99e4-48d603f3e12d"
          }
        ],
        "meta": {
          "profile": [
            "http://hl7.org/fhir/uv/genomics-reporting/StructureDefinition/variant"
          ]
        },
        "resourceType": "Observation",
        "status": "final",
        "valueCodeableConcept": {
          "coding": [
            {
              "code": "LA9633-4",
              "system": "http://loinc.org",
              "display": "Present"
            }
          ]
        }
      }
    }
  ],
  "type": "transaction"
}
