{
  "resourceType": "Bundle",
  "id": "complexVariant-nonHGVS",
  "entry": [
    {
      "fullUrl": "urn:uuid:16fdd5fc-e665-48af-99e4-48d603f3e12d",
      "request": {
        "method": "POST",
        "url": "Observation"
      },
      "resource": {
        "category": [
          {
            "coding": [
              {
                "code": "laboratory",
                "system": "http://terminology.hl7.org/CodeSystem/observation-category"
              }
            ]
          }
        ],
        "code": {
          "coding": [
            {
              "code": "69548-6",
              "system": "http://loinc.org",
              "display": "Genetic variant assessment"
            }
          ]
        },
        "component": [
          {
            "code": {
              "coding": [
                {
                  "code": "51958-7",
                  "system": "http://loinc.org",
                  "display": "Transcript ref sequence ID"
                }
              ]
            },
            "valueCodeableConcept": {
              "coding": [
                {
                  "code": "NM_022787.3",
                  "system": "http://www.ncbi.nlm.nih.gov/refseq",
                  "display": "NM_022787.3"
                }
              ]
            }
          },
          {
            "code": {
              "coding": [
                {
                  "code": "exact-start-end",
                  "system": "http://hl7.org/fhir/uv/genomics-reporting/CodeSystem/TbdCodes",
                  "display": "Variant exact start and end"
                }
              ]
            },
            "valueRange": {
              "high": {
                "value": 769
              },
              "low": {
                "value": 769
              }
            }
          },
          {
            "code": {
              "coding": [
                {
                  "code": "69547-8",
                  "system": "http://loinc.org",
                  "display": "Genomic ref allele [ID]"
                }
              ]
            },
            "valueString": "G"
          },
          {
            "code": {
              "coding": [
                {
                  "code": "69551-0",
                  "system": "http://loinc.org",
                  "display": "Genomic alt allele [ID]"
                }
              ]
            },
            "valueString": "A"
          }
        ],
        "meta": {
          "profile": [
            "http://hl7.org/fhir/uv/genomics-reporting/StructureDefinition/variant"
          ]
        },
        "resourceType": "Observation",
        "status": "final",
        "valueCodeableConcept": {
          "coding": [
            {
              "code": "LA9633-4",
              "system": "http://loinc.org",
              "display": "Present"
            }
          ]
        }
      }
    },
    {
      "fullUrl": "urn:uuid:16fdd5fc-e665-48af-99e4-48d603f3e12e",
      "request": {
        "method": "POST",
        "url": "Observation"
      },
      "resource": {
        "category": [
          {
            "coding": [
              {
                "code": "laboratory",
                "system": "http://terminology.hl7.org/CodeSystem/observation-category"
              }
            ]
          }
        ],
        "code": {
          "coding": [
            {
              "code": "69548-6",
              "system": "http://loinc.org",
              "display": "Genetic variant assessment"
            }
          ]
        },
        "component": [
          {
            "code": {
              "coding": [
                {
                  "code": "51958-7",
                  "system": "http://loinc.org",
                  "display": "Transcript ref sequence ID"
                }
              ]
            },
            "valueCodeableConcept": {
              "coding": [
                {
                  "code": "NM_022787.3",
                  "system": "http://www.ncbi.nlm.nih.gov/refseq",
                  "display": "NM_022787.3"
                }
              ]
            }
          },
          {
            "code": {
              "coding": [
                {
                  "code": "exact-start-end",
                  "system": "http://hl7.org/fhir/uv/genomics-reporting/CodeSystem/TbdCodes",
                  "display": "Variant exact start and end"
                }
              ]
            },
            "valueRange": {
              "high": {
                "value": 53
              },
              "low": {
                "value": 53
              }
            }
          },
          {
            "code": {
              "coding": [
                {
                  "code": "69547-8",
                  "system": "http://loinc.org",
                  "display": "Genomic ref allele [ID]"
                }
              ]
            },
            "valueString": "A"
          },
          {
            "code": {
              "coding": [
                {
                  "code": "69551-0",
                  "system": "http://loinc.org",
                  "display": "Genomic alt allele [ID]"
                }
              ]
            },
            "valueString": "G"
          }
        ],
        "meta": {
          "profile": [
            "http://hl7.org/fhir/uv/genomics-reporting/StructureDefinition/variant"
          ]
        },
        "resourceType": "Observation",
        "status": "final",
        "valueCodeableConcept": {
          "coding": [
            {
              "code": "LA9633-4",
              "system": "http://loinc.org",
              "display": "Present"
            }
          ]
        }
      }
    },
    {
      "fullUrl": "urn:uuid:16fdd5fc-e665-48af-99e4-48d603f3e12a",
      "request": {
        "method": "POST",
        "url": "Observation"
      },
      "resource": {
        "category": [
          {
            "coding": [
              {
                "code": "laboratory",
                "system": "http://terminology.hl7.org/CodeSystem/observation-category"
              }
            ]
          }
        ],
        "code": {
          "coding": [
            {
              "code": "69548-6",
              "system": "http://loinc.org",
              "display": "Genetic variant assessment"
            }
          ]
        },
        "component": [
          {
            "code": {
              "coding": [
                {
                  "code": "81263-6",
                  "system": "http://loinc.org",
                  "display": "Complex Variant Type"
                }
              ]
            },
            "valueCodeableConcept": {
              "coding": [
                {
                  "code": "LA26217-2",
                  "system": "http://loinc.org",
                  "display": "Compound heterozygous"
                }
              ]
            }
          }
        ],
        "hasMember": [
          {
            "display": "unpacked representation of NM_022787.3:c.53A>G",
            "reference": "urn:uuid:16fdd5fc-e665-48af-99e4-48d603f3e12e"
          },
          {
            "display": "unpacked representation of NM_022787.3:c.769G>A",
            "reference": "urn:uuid:16fdd5fc-e665-48af-99e4-48d603f3e12d"
          }
        ],
        "meta": {
          "profile": [
            "http://hl7.org/fhir/uv/genomics-reporting/StructureDefinition/variant"
          ]
        },
        "resourceType": "Observation",
        "status": "final",
        "valueCodeableConcept": {
          "coding": [
            {
              "code": "LA9633-4",
              "system": "http://loinc.org",
              "display": "Present"
            }
          ]
        }
      }
    }
  ],
  "type": "transaction"
}
