{
  "resourceType": "Bundle",
  "id": "CGBundleExampleoncologyexamples-r4",
  "entry": [
    {
      "fullUrl": "urn:uuid:d0b4affa-91d6-46d1-af01-b30d9f16ef6d",
      "request": {
        "method": "POST",
        "url": "Patient"
      },
      "resource": {
        "birthDate": "1962-12-31",
        "gender": "male",
        "generalPractitioner": [
          {
            "reference": "urn:uuid:a48256f8-db37-44e0-a0f6-d7af16c7c9ef"
          }
        ],
        "identifier": [
          {
            "value": "1007"
          }
        ],
        "name": [
          {
            "given": [
              "Carrot",
              "John",
              "Mr"
            ]
          }
        ],
        "resourceType": "Patient"
      }
    },
    {
      "fullUrl": "urn:uuid:a48256f8-db37-44e0-a0f6-d7af16c7c9ef",
      "request": {
        "method": "POST",
        "url": "Practitioner"
      },
      "resource": {
        "address": [
          {
            "city": "Castro Valley",
            "state": "CA"
          }
        ],
        "identifier": [
          {
            "value": "4654765876"
          }
        ],
        "name": [
          {
            "given": [
              "Akerman",
              "Philip",
              "Prof"
            ]
          }
        ],
        "resourceType": "Practitioner"
      }
    },
    {
      "fullUrl": "urn:uuid:a5d6a6a9-4859-480e-85b2-56974fef3b9d",
      "request": {
        "method": "POST",
        "url": "Specimen"
      },
      "resource": {
        "collection": {
          "collector": {
            "reference": "urn:uuid:a48256f8-db37-44e0-a0f6-d7af16c7c9ef"
          }
        },
        "identifier": [
          {
            "value": "076e1948-2217-11e9-94d8-12e241dc1f66"
          }
        ],
        "meta": {
          "profile": [
            "http://hl7.org/fhir/uv/genomics-reporting/StructureDefinition/specimen"
          ]
        },
        "resourceType": "Specimen",
        "status": "available",
        "subject": {
          "reference": "urn:uuid:d0b4affa-91d6-46d1-af01-b30d9f16ef6d"
        }
      }
    },
    {
      "fullUrl": "urn:uuid:40e85eda-4d31-4bd2-a5a0-c39d63f9824f",
      "request": {
        "method": "POST",
        "url": "Observation"
      },
      "resource": {
        "code": {
          "text": "Tumor Mutational Burden"
        },
        "performer": [
          {
            "reference": "urn:uuid:a48256f8-db37-44e0-a0f6-d7af16c7c9ef"
          }
        ],
        "resourceType": "Observation",
        "specimen": {
          "reference": "urn:uuid:a5d6a6a9-4859-480e-85b2-56974fef3b9d"
        },
        "status": "final",
        "subject": {
          "reference": "urn:uuid:d0b4affa-91d6-46d1-af01-b30d9f16ef6d"
        },
        "valueQuantity": {
          "code": "1/1000000{Base}",
          "system": "http://unitsofmeasure.org",
          "unit": "somatic variants per megabase of sequenced DNA",
          "value": 25
        }
      }
    },
    {
      "fullUrl": "urn:uuid:64b91716-6431-41bd-8fd4-7ac99bebdee9",
      "request": {
        "method": "POST",
        "url": "Observation"
      },
      "resource": {
        "code": {
          "text": "MSI status"
        },
        "performer": [
          {
            "reference": "urn:uuid:a48256f8-db37-44e0-a0f6-d7af16c7c9ef"
          }
        ],
        "resourceType": "Observation",
        "specimen": {
          "reference": "urn:uuid:a5d6a6a9-4859-480e-85b2-56974fef3b9d"
        },
        "status": "final",
        "subject": {
          "reference": "urn:uuid:d0b4affa-91d6-46d1-af01-b30d9f16ef6d"
        },
        "valueString": "High"
      }
    },
    {
      "fullUrl": "urn:uuid:16fdd5fc-e665-48af-99e4-48d603f3e12d",
      "request": {
        "method": "POST",
        "url": "Observation"
      },
      "resource": {
        "category": [
          {
            "coding": [
              {
                "code": "laboratory",
                "system": "http://terminology.hl7.org/CodeSystem/observation-category"
              }
            ]
          }
        ],
        "code": {
          "coding": [
            {
              "code": "69548-6",
              "system": "http://loinc.org",
              "display": "Genetic variant assessment"
            }
          ]
        },
        "component": [
          {
            "code": {
              "coding": [
                {
                  "code": "81290-9",
                  "system": "http://loinc.org",
                  "display": "Genomic DNA change (gHGVS)"
                }
              ]
            },
            "valueCodeableConcept": {
              "coding": [
                {
                  "code": "9:g.5073770G>T",
                  "system": "http://varnomen.hgvs.org",
                  "display": "9:g.5073770G>T"
                }
              ]
            }
          },
          {
            "code": {
              "coding": [
                {
                  "code": "48005-3",
                  "system": "http://loinc.org",
                  "display": "Amino acid change (pHGVS)"
                }
              ]
            },
            "valueCodeableConcept": {
              "coding": [
                {
                  "code": "p.Val617Phe",
                  "system": "http://varnomen.hgvs.org",
                  "display": "p.Val617Phe"
                }
              ]
            }
          },
          {
            "code": {
              "coding": [
                {
                  "code": "48006-1",
                  "system": "http://loinc.org",
                  "display": "Amino acid change type"
                }
              ]
            },
            "valueCodeableConcept": {
              "coding": [
                {
                  "code": "LA6698-0",
                  "system": "http://loinc.org",
                  "display": "Missense"
                }
              ]
            }
          },
          {
            "code": {
              "coding": [
                {
                  "code": "48002-0",
                  "system": "http://loinc.org",
                  "display": "Genomic source class"
                }
              ]
            },
            "valueCodeableConcept": {
              "coding": [
                {
                  "code": "LA6683-2",
                  "system": "http://loinc.org",
                  "display": "Germline"
                }
              ]
            }
          },
          {
            "code": {
              "coding": [
                {
                  "code": "48018-6",
                  "system": "http://loinc.org",
                  "display": "Gene studied ID"
                }
              ]
            },
            "valueCodeableConcept": {
              "coding": [
                {
                  "code": "JAK2",
                  "system": "http://www.genenames.org/geneId",
                  "display": "JAK2"
                }
              ]
            }
          }
        ],
        "meta": {
          "profile": [
            "http://hl7.org/fhir/uv/genomics-reporting/StructureDefinition/variant"
          ]
        },
        "method": {
          "coding": [
            {
              "code": "LA26398-0",
              "system": "http://loinc.org",
              "display": "Sequencing"
            }
          ]
        },
        "performer": [
          {
            "reference": "urn:uuid:a48256f8-db37-44e0-a0f6-d7af16c7c9ef"
          }
        ],
        "resourceType": "Observation",
        "specimen": {
          "reference": "urn:uuid:a5d6a6a9-4859-480e-85b2-56974fef3b9d"
        },
        "status": "final",
        "subject": {
          "reference": "urn:uuid:d0b4affa-91d6-46d1-af01-b30d9f16ef6d"
        },
        "valueCodeableConcept": {
          "coding": [
            {
              "code": "LA9633-4",
              "system": "http://loinc.org",
              "display": "Present"
            }
          ]
        }
      }
    },
    {
      "fullUrl": "urn:uuid:772de7d7-e1bd-4183-bdb5-cea8eda317cd",
      "request": {
        "method": "POST",
        "url": "Observation"
      }
    }
  ]
}
