{
  "resourceType": "Bundle",
  "id": "oncologyexamples-r4",
  "entry": [
    {
      "fullUrl": "urn:uuid:d0b4affa-91d6-46d1-af01-b30d9f16ef6d",
      "request": {
        "method": "POST",
        "url": "Patient"
      },
      "resource": {
        "birthDate": "1962-12-31",
        "gender": "male",
        "generalPractitioner": [
          {
            "reference": "urn:uuid:a48256f8-db37-44e0-a0f6-d7af16c7c9ef"
          }
        ],
        "identifier": [
          {
            "value": "1007"
          }
        ],
        "name": [
          {
            "given": [
              "Carrot",
              "John",
              "Mr"
            ]
          }
        ],
        "resourceType": "Patient"
      }
    },
    {
      "fullUrl": "urn:uuid:a48256f8-db37-44e0-a0f6-d7af16c7c9ef",
      "request": {
        "method": "POST",
        "url": "Practitioner"
      },
      "resource": {
        "address": [
          {
            "city": "Castro Valley",
            "state": "CA"
          }
        ],
        "identifier": [
          {
            "value": "4654765876"
          }
        ],
        "name": [
          {
            "given": [
              "Akerman",
              "Philip",
              "Prof"
            ]
          }
        ],
        "resourceType": "Practitioner"
      }
    },
    {
      "fullUrl": "urn:uuid:a5d6a6a9-4859-480e-85b2-56974fef3b9d",
      "request": {
        "method": "POST",
        "url": "Specimen"
      },
      "resource": {
        "collection": {
          "collector": {
            "reference": "urn:uuid:a48256f8-db37-44e0-a0f6-d7af16c7c9ef"
          }
        },
        "identifier": [
          {
            "value": "076e1948-2217-11e9-94d8-12e241dc1f66"
          }
        ],
        "meta": {
          "profile": [
            "http://hl7.org/fhir/uv/genomics-reporting/StructureDefinition/specimen"
          ]
        },
        "resourceType": "Specimen",
        "status": "available",
        "subject": {
          "reference": "urn:uuid:d0b4affa-91d6-46d1-af01-b30d9f16ef6d"
        }
      }
    },
    {
      "fullUrl": "urn:uuid:40e85eda-4d31-4bd2-a5a0-c39d63f9824f",
      "request": {
        "method": "POST",
        "url": "Observation"
      },
      "resource": {
        "code": {
          "text": "Tumor Mutational Burden"
        },
        "performer": [
          {
            "reference": "urn:uuid:a48256f8-db37-44e0-a0f6-d7af16c7c9ef"
          }
        ],
        "resourceType": "Observation",
        "specimen": {
          "reference": "urn:uuid:a5d6a6a9-4859-480e-85b2-56974fef3b9d"
        },
        "status": "final",
        "subject": {
          "reference": "urn:uuid:d0b4affa-91d6-46d1-af01-b30d9f16ef6d"
        },
        "valueQuantity": {
          "code": "1/1000000{Base}",
          "system": "http://unitsofmeasure.org",
          "unit": "somatic variants per megabase of sequenced DNA",
          "value": 25
        }
      }
    },
    {
      "fullUrl": "urn:uuid:64b91716-6431-41bd-8fd4-7ac99bebdee9",
      "request": {
        "method": "POST",
        "url": "Observation"
      },
      "resource": {
        "code": {
          "text": "MSI status"
        },
        "performer": [
          {
            "reference": "urn:uuid:a48256f8-db37-44e0-a0f6-d7af16c7c9ef"
          }
        ],
        "resourceType": "Observation",
        "specimen": {
          "reference": "urn:uuid:a5d6a6a9-4859-480e-85b2-56974fef3b9d"
        },
        "status": "final",
        "subject": {
          "reference": "urn:uuid:d0b4affa-91d6-46d1-af01-b30d9f16ef6d"
        },
        "valueString": "High"
      }
    },
    {
      "fullUrl": "urn:uuid:16fdd5fc-e665-48af-99e4-48d603f3e12d",
      "request": {
        "method": "POST",
        "url": "Observation"
      },
      "resource": {
        "category": [
          {
            "coding": [
              {
                "code": "laboratory",
                "system": "http://terminology.hl7.org/CodeSystem/observation-category"
              }
            ]
          }
        ],
        "code": {
          "coding": [
            {
              "code": "69548-6",
              "system": "http://loinc.org",
              "display": "Genetic variant assessment"
            }
          ]
        },
        "component": [
          {
            "code": {
              "coding": [
                {
                  "code": "81290-9",
                  "system": "http://loinc.org",
                  "display": "Genomic DNA change (gHGVS)"
                }
              ]
            },
            "valueCodeableConcept": {
              "coding": [
                {
                  "code": "9:g.5073770G>T",
                  "system": "http://varnomen.hgvs.org",
                  "display": "9:g.5073770G>T"
                }
              ]
            }
          },
          {
            "code": {
              "coding": [
                {
                  "code": "48005-3",
                  "system": "http://loinc.org",
                  "display": "Amino acid change (pHGVS)"
                }
              ]
            },
            "valueCodeableConcept": {
              "coding": [
                {
                  "code": "p.Val617Phe",
                  "system": "http://varnomen.hgvs.org",
                  "display": "p.Val617Phe"
                }
              ]
            }
          },
          {
            "code": {
              "coding": [
                {
                  "code": "48006-1",
                  "system": "http://loinc.org",
                  "display": "Amino acid change type"
                }
              ]
            },
            "valueCodeableConcept": {
              "coding": [
                {
                  "code": "LA6698-0",
                  "system": "http://loinc.org",
                  "display": "Missense"
                }
              ]
            }
          },
          {
            "code": {
              "coding": [
                {
                  "code": "48002-0",
                  "system": "http://loinc.org",
                  "display": "Genomic source class"
                }
              ]
            },
            "valueCodeableConcept": {
              "coding": [
                {
                  "code": "LA6683-2",
                  "system": "http://loinc.org",
                  "display": "Germline"
                }
              ]
            }
          },
          {
            "code": {
              "coding": [
                {
                  "code": "48018-6",
                  "system": "http://loinc.org",
                  "display": "Gene studied ID"
                }
              ]
            },
            "valueCodeableConcept": {
              "coding": [
                {
                  "code": "JAK2",
                  "system": "http://www.genenames.org/geneId",
                  "display": "JAK2"
                }
              ]
            }
          }
        ],
        "meta": {
          "profile": [
            "http://hl7.org/fhir/uv/genomics-reporting/StructureDefinition/variant"
          ]
        },
        "method": {
          "coding": [
            {
              "code": "LA26398-0",
              "system": "http://loinc.org",
              "display": "Sequencing"
            }
          ]
        },
        "performer": [
          {
            "reference": "urn:uuid:a48256f8-db37-44e0-a0f6-d7af16c7c9ef"
          }
        ],
        "resourceType": "Observation",
        "specimen": {
          "reference": "urn:uuid:a5d6a6a9-4859-480e-85b2-56974fef3b9d"
        },
        "status": "final",
        "subject": {
          "reference": "urn:uuid:d0b4affa-91d6-46d1-af01-b30d9f16ef6d"
        },
        "valueCodeableConcept": {
          "coding": [
            {
              "code": "LA9633-4",
              "system": "http://loinc.org",
              "display": "Present"
            }
          ]
        }
      }
    },
    {
      "fullUrl": "urn:uuid:772de7d7-e1bd-4183-bdb5-cea8eda317cd",
      "request": {
        "method": "POST",
        "url": "Observation"
      },
      "resource": {
        "category": [
          {
            "coding": [
              {
                "code": "laboratory",
                "system": "http://terminology.hl7.org/CodeSystem/observation-category"
              }
            ]
          }
        ],
        "code": {
          "coding": [
            {
              "code": "69548-6",
              "system": "http://loinc.org",
              "display": "Genetic variant assessment"
            }
          ]
        },
        "component": [
          {
            "code": {
              "coding": [
                {
                  "code": "81290-9",
                  "system": "http://loinc.org",
                  "display": "Genomic DNA change (gHGVS)"
                }
              ]
            },
            "valueCodeableConcept": {
              "coding": [
                {
                  "code": "4:g.55972974T>A",
                  "system": "http://varnomen.hgvs.org",
                  "display": "4:g.55972974T>A"
                }
              ]
            }
          },
          {
            "code": {
              "coding": [
                {
                  "code": "48005-3",
                  "system": "http://loinc.org",
                  "display": "Amino acid change (pHGVS)"
                }
              ]
            },
            "valueCodeableConcept": {
              "coding": [
                {
                  "code": "p.Gln472His",
                  "system": "http://varnomen.hgvs.org",
                  "display": "p.Gln472His"
                }
              ]
            }
          },
          {
            "code": {
              "coding": [
                {
                  "code": "48006-1",
                  "system": "http://loinc.org",
                  "display": "Amino acid change type"
                }
              ]
            },
            "valueCodeableConcept": {
              "coding": [
                {
                  "code": "LA6698-0",
                  "system": "http://loinc.org",
                  "display": "Missense"
                }
              ]
            }
          },
          {
            "code": {
              "coding": [
                {
                  "code": "48002-0",
                  "system": "http://loinc.org",
                  "display": "Genomic source class"
                }
              ]
            },
            "valueCodeableConcept": {
              "coding": [
                {
                  "code": "LA6683-2",
                  "system": "http://loinc.org",
                  "display": "Germline"
                }
              ]
            }
          },
          {
            "code": {
              "coding": [
                {
                  "code": "48018-6",
                  "system": "http://loinc.org",
                  "display": "Gene studied ID"
                }
              ]
            },
            "valueCodeableConcept": {
              "coding": [
                {
                  "code": "KDR",
                  "system": "http://www.genenames.org/geneId",
                  "display": "KDR"
                }
              ]
            }
          }
        ],
        "meta": {
          "profile": [
            "http://hl7.org/fhir/uv/genomics-reporting/StructureDefinition/variant"
          ]
        },
        "method": {
          "coding": [
            {
              "code": "LA26398-0",
              "system": "http://loinc.org",
              "display": "Sequencing"
            }
          ]
        },
        "performer": [
          {
            "reference": "urn:uuid:a48256f8-db37-44e0-a0f6-d7af16c7c9ef"
          }
        ],
        "resourceType": "Observation",
        "specimen": {
          "reference": "urn:uuid:a5d6a6a9-4859-480e-85b2-56974fef3b9d"
        },
        "status": "final",
        "subject": {
          "reference": "urn:uuid:d0b4affa-91d6-46d1-af01-b30d9f16ef6d"
        },
        "valueCodeableConcept": {
          "coding": [
            {
              "code": "LA9633-4",
              "system": "http://loinc.org",
              "display": "Present"
            }
          ]
        }
      }
    },
    {
      "fullUrl": "urn:uuid:b33eb7ec-d83e-49d2-b0f3-729d024ebe01",
      "request": {
        "method": "POST",
        "url": "Observation"
      },
      "resource": {
        "category": [
          {
            "coding": [
              {
                "code": "laboratory",
                "system": "http://terminology.hl7.org/CodeSystem/observation-category"
              }
            ]
          }
        ],
        "code": {
          "coding": [
            {
              "code": "69548-6",
              "system": "http://loinc.org",
              "display": "Genetic variant assessment"
            }
          ]
        },
        "component": [
          {
            "code": {
              "coding": [
                {
                  "code": "81290-9",
                  "system": "http://loinc.org",
                  "display": "Genomic DNA change (gHGVS)"
                }
              ]
            },
            "valueCodeableConcept": {
              "coding": [
                {
                  "code": "2:g.212578380del",
                  "system": "http://varnomen.hgvs.org",
                  "display": "2:g.212578380del"
                }
              ]
            }
          },
          {
            "code": {
              "coding": [
                {
                  "code": "48006-1",
                  "system": "http://loinc.org",
                  "display": "Amino acid change type"
                }
              ]
            },
            "valueCodeableConcept": {
              "coding": [
                {
                  "code": "LA6698-0",
                  "system": "http://loinc.org",
                  "display": "Missense"
                }
              ]
            }
          },
          {
            "code": {
              "coding": [
                {
                  "code": "48002-0",
                  "system": "http://loinc.org",
                  "display": "Genomic source class"
                }
              ]
            },
            "valueCodeableConcept": {
              "coding": [
                {
                  "code": "LA6683-2",
                  "system": "http://loinc.org",
                  "display": "Germline"
                }
              ]
            }
          },
          {
            "code": {
              "coding": [
                {
                  "code": "48018-6",
                  "system": "http://loinc.org",
                  "display": "Gene studied ID"
                }
              ]
            },
            "valueCodeableConcept": {
              "coding": [
                {
                  "code": "ERBB4",
                  "system": "http://www.genenames.org/geneId",
                  "display": "ERBB4"
                }
              ]
            }
          }
        ],
        "meta": {
          "profile": [
            "http://hl7.org/fhir/uv/genomics-reporting/StructureDefinition/variant"
          ]
        },
        "method": {
          "coding": [
            {
              "code": "LA26398-0",
              "system": "http://loinc.org",
              "display": "Sequencing"
            }
          ]
        },
        "performer": [
          {
            "reference": "urn:uuid:a48256f8-db37-44e0-a0f6-d7af16c7c9ef"
          }
        ],
        "resourceType": "Observation",
        "specimen": {
          "reference": "urn:uuid:a5d6a6a9-4859-480e-85b2-56974fef3b9d"
        },
        "status": "final",
        "subject": {
          "reference": "urn:uuid:d0b4affa-91d6-46d1-af01-b30d9f16ef6d"
        },
        "valueCodeableConcept": {
          "coding": [
            {
              "code": "LA9633-4",
              "system": "http://loinc.org",
              "display": "Present"
            }
          ]
        }
      }
    },
    {
      "fullUrl": "urn:uuid:1bf9642d-fd1c-4819-8c5d-44fae4bad524",
      "request": {
        "method": "POST",
        "url": "Observation"
      },
      "resource": {
        "category": [
          {
            "coding": [
              {
                "code": "laboratory",
                "system": "http://terminology.hl7.org/CodeSystem/observation-category"
              }
            ]
          }
        ],
        "code": {
          "coding": [
            {
              "code": "therapeutic-implication",
              "system": "http://hl7.org/fhir/uv/genomics-reporting/CodeSystem/TbdCodes",
              "display": "Therapeutic Implication"
            }
          ]
        },
        "component": [
          {
            "code": {
              "coding": [
                {
                  "code": "51961-1",
                  "system": "http://loinc.org"
                }
              ]
            },
            "valueCodeableConcept": {
              "coding": [
                {
                  "code": "LA6677-4",
                  "system": "http://loinc.org",
                  "display": "Responsive"
                }
              ]
            }
          },
          {
            "code": {
              "coding": [
                {
                  "code": "93044-6",
                  "system": "http://loinc.org",
                  "display": "Level of Evidence"
                }
              ]
            },
            "valueCodeableConcept": {
              "text": "AMP Guidelines"
            }
          },
          {
            "code": {
              "coding": [
                {
                  "code": "associated-cancer",
                  "system": "http://hl7.org/fhir/uv/genomics-reporting/CodeSystem/TbdCodes"
                }
              ]
            },
            "valueCodeableConcept": {
              "text": "Polycythemia vera (PV)"
            }
          },
          {
            "code": {
              "coding": [
                {
                  "code": "51963-7",
                  "system": "http://loinc.org",
                  "display": "Medication assessed"
                }
              ]
            },
            "valueCodeableConcept": {
              "text": "Ruxolitinib"
            }
          }
        ],
        "derivedFrom": [
          {
            "reference": "urn:uuid:16fdd5fc-e665-48af-99e4-48d603f3e12d"
          }
        ],
        "meta": {
          "profile": [
            "http://hl7.org/fhir/uv/genomics-reporting/StructureDefinition/therapeutic-implication"
          ]
        },
        "method": {
          "coding": [
            {
              "code": "LA26811-2",
              "system": "http://loinc.org",
              "display": "Computational analysis"
            }
          ]
        },
        "performer": [
          {
            "reference": "urn:uuid:a48256f8-db37-44e0-a0f6-d7af16c7c9ef"
          }
        ],
        "resourceType": "Observation",
        "specimen": {
          "reference": "urn:uuid:a5d6a6a9-4859-480e-85b2-56974fef3b9d"
        },
        "status": "final",
        "subject": {
          "reference": "urn:uuid:d0b4affa-91d6-46d1-af01-b30d9f16ef6d"
        }
      }
    },
    {
      "fullUrl": "urn:uuid:1301943b-55db-4adf-8355-3635f7268a1b",
      "request": {
        "method": "POST",
        "url": "Observation"
      },
      "resource": {
        "category": [
          {
            "coding": [
              {
                "code": "laboratory",
                "system": "http://terminology.hl7.org/CodeSystem/observation-category"
              }
            ]
          }
        ],
        "code": {
          "coding": [
            {
              "code": "therapeutic-implication",
              "system": "http://hl7.org/fhir/uv/genomics-reporting/CodeSystem/TbdCodes",
              "display": "Therapeutic Implication"
            }
          ]
        },
        "component": [
          {
            "code": {
              "coding": [
                {
                  "code": "51961-1",
                  "system": "http://loinc.org"
                }
              ]
            },
            "valueCodeableConcept": {
              "coding": [
                {
                  "code": "LA6677-4",
                  "system": "http://loinc.org",
                  "display": "Responsive"
                }
              ]
            }
          },
          {
            "code": {
              "coding": [
                {
                  "code": "93044-6",
                  "system": "http://loinc.org",
                  "display": "Level of Evidence"
                }
              ]
            },
            "valueCodeableConcept": {
              "text": "AMP Guidelines"
            }
          },
          {
            "code": {
              "coding": [
                {
                  "code": "associated-cancer",
                  "system": "http://hl7.org/fhir/uv/genomics-reporting/CodeSystem/TbdCodes"
                }
              ]
            },
            "valueCodeableConcept": {
              "text": "Polycythemia vera (PV)"
            }
          },
          {
            "code": {
              "coding": [
                {
                  "code": "51963-7",
                  "system": "http://loinc.org",
                  "display": "Medication assessed"
                }
              ]
            },
            "valueCodeableConcept": {
              "text": "AT9283"
            }
          }
        ],
        "derivedFrom": [
          {
            "reference": "urn:uuid:16fdd5fc-e665-48af-99e4-48d603f3e12d"
          }
        ],
        "meta": {
          "profile": [
            "http://hl7.org/fhir/uv/genomics-reporting/StructureDefinition/therapeutic-implication"
          ]
        },
        "method": {
          "coding": [
            {
              "code": "LA26811-2",
              "system": "http://loinc.org",
              "display": "Computational analysis"
            }
          ]
        },
        "performer": [
          {
            "reference": "urn:uuid:a48256f8-db37-44e0-a0f6-d7af16c7c9ef"
          }
        ],
        "resourceType": "Observation",
        "specimen": {
          "reference": "urn:uuid:a5d6a6a9-4859-480e-85b2-56974fef3b9d"
        },
        "status": "final",
        "subject": {
          "reference": "urn:uuid:d0b4affa-91d6-46d1-af01-b30d9f16ef6d"
        }
      }
    },
    {
      "fullUrl": "urn:uuid:05713d1c-0df5-46d5-a5a9-2085eef56c20",
      "request": {
        "method": "POST",
        "url": "Observation"
      },
      "resource": {
        "category": [
          {
            "coding": [
              {
                "code": "laboratory",
                "system": "http://terminology.hl7.org/CodeSystem/observation-category"
              }
            ]
          }
        ],
        "code": {
          "coding": [
            {
              "code": "therapeutic-implication",
              "system": "http://hl7.org/fhir/uv/genomics-reporting/CodeSystem/TbdCodes",
              "display": "Therapeutic Implication"
            }
          ]
        },
        "component": [
          {
            "code": {
              "coding": [
                {
                  "code": "51961-1",
                  "system": "http://loinc.org"
                }
              ]
            },
            "valueCodeableConcept": {
              "coding": [
                {
                  "code": "LA6677-4",
                  "system": "http://loinc.org",
                  "display": "Responsive"
                }
              ]
            }
          },
          {
            "code": {
              "coding": [
                {
                  "code": "93044-6",
                  "system": "http://loinc.org",
                  "display": "Level of Evidence"
                }
              ]
            },
            "valueCodeableConcept": {
              "text": "AMP Guidelines"
            }
          },
          {
            "code": {
              "coding": [
                {
                  "code": "associated-cancer",
                  "system": "http://hl7.org/fhir/uv/genomics-reporting/CodeSystem/TbdCodes"
                }
              ]
            },
            "valueCodeableConcept": {
              "text": "Polycythemia vera (PV)"
            }
          },
          {
            "code": {
              "coding": [
                {
                  "code": "51963-7",
                  "system": "http://loinc.org",
                  "display": "Medication assessed"
                }
              ]
            },
            "valueCodeableConcept": {
              "text": "SNX-5422"
            }
          }
        ],
        "derivedFrom": [
          {
            "reference": "urn:uuid:16fdd5fc-e665-48af-99e4-48d603f3e12d"
          }
        ],
        "meta": {
          "profile": [
            "http://hl7.org/fhir/uv/genomics-reporting/StructureDefinition/therapeutic-implication"
          ]
        },
        "method": {
          "coding": [
            {
              "code": "LA26811-2",
              "system": "http://loinc.org",
              "display": "Computational analysis"
            }
          ]
        },
        "performer": [
          {
            "reference": "urn:uuid:a48256f8-db37-44e0-a0f6-d7af16c7c9ef"
          }
        ],
        "resourceType": "Observation",
        "specimen": {
          "reference": "urn:uuid:a5d6a6a9-4859-480e-85b2-56974fef3b9d"
        },
        "status": "final",
        "subject": {
          "reference": "urn:uuid:d0b4affa-91d6-46d1-af01-b30d9f16ef6d"
        }
      }
    },
    {
      "fullUrl": "urn:uuid:294f1401-e2eb-4df1-b6d2-09e1b7a6eca4",
      "request": {
        "method": "POST",
        "url": "Observation"
      },
      "resource": {
        "category": [
          {
            "coding": [
              {
                "code": "laboratory",
                "system": "http://terminology.hl7.org/CodeSystem/observation-category"
              }
            ]
          }
        ],
        "code": {
          "coding": [
            {
              "code": "therapeutic-implication",
              "system": "http://hl7.org/fhir/uv/genomics-reporting/CodeSystem/TbdCodes",
              "display": "Therapeutic Implication"
            }
          ]
        },
        "component": [
          {
            "code": {
              "coding": [
                {
                  "code": "51961-1",
                  "system": "http://loinc.org"
                }
              ]
            },
            "valueCodeableConcept": {
              "coding": [
                {
                  "code": "LA6677-4",
                  "system": "http://loinc.org",
                  "display": "Responsive"
                }
              ]
            }
          },
          {
            "code": {
              "coding": [
                {
                  "code": "93044-6",
                  "system": "http://loinc.org",
                  "display": "Level of Evidence"
                }
              ]
            },
            "valueCodeableConcept": {
              "text": "AMP Guidelines"
            }
          },
          {
            "code": {
              "coding": [
                {
                  "code": "associated-cancer",
                  "system": "http://hl7.org/fhir/uv/genomics-reporting/CodeSystem/TbdCodes"
                }
              ]
            },
            "valueCodeableConcept": {
              "text": "Polycythemia vera (PV)"
            }
          },
          {
            "code": {
              "coding": [
                {
                  "code": "51963-7",
                  "system": "http://loinc.org",
                  "display": "Medication assessed"
                }
              ]
            },
            "valueCodeableConcept": {
              "text": "TG02"
            }
          }
        ],
        "derivedFrom": [
          {
            "reference": "urn:uuid:16fdd5fc-e665-48af-99e4-48d603f3e12d"
          }
        ],
        "meta": {
          "profile": [
            "http://hl7.org/fhir/uv/genomics-reporting/StructureDefinition/therapeutic-implication"
          ]
        },
        "method": {
          "coding": [
            {
              "code": "LA26811-2",
              "system": "http://loinc.org",
              "display": "Computational analysis"
            }
          ]
        },
        "performer": [
          {
            "reference": "urn:uuid:a48256f8-db37-44e0-a0f6-d7af16c7c9ef"
          }
        ],
        "resourceType": "Observation",
        "specimen": {
          "reference": "urn:uuid:a5d6a6a9-4859-480e-85b2-56974fef3b9d"
        },
        "status": "final",
        "subject": {
          "reference": "urn:uuid:d0b4affa-91d6-46d1-af01-b30d9f16ef6d"
        }
      }
    },
    {
      "fullUrl": "urn:uuid:16fdd5fc-e665-48af-99e4-48d603f3e12f",
      "request": {
        "method": "POST",
        "url": "Observation"
      },
      "resource": {
        "category": [
          {
            "coding": [
              {
                "code": "laboratory",
                "system": "http://terminology.hl7.org/CodeSystem/observation-category"
              }
            ]
          }
        ],
        "code": {
          "coding": [
            {
              "code": "grouper",
              "system": "http://hl7.org/fhir/uv/genomics-reporting/CodeSystem/TbdCodes",
              "display": "grouper"
            }
          ]
        },
        "hasMember": [
          {
            "display": "SNV analysis for JAK2 variant",
            "reference": "urn:uuid:16fdd5fc-e665-48af-99e4-48d603f3e12d"
          },
          {
            "display": "SNV analysis for KDR variant",
            "reference": "urn:uuid:772de7d7-e1bd-4183-bdb5-cea8eda317cd"
          },
          {
            "display": "SNV analysis for ERBB4 variant",
            "reference": "urn:uuid:b33eb7ec-d83e-49d2-b0f3-729d024ebe01"
          },
          {
            "display": "TMB value analysis",
            "reference": "urn:uuid:40e85eda-4d31-4bd2-a5a0-c39d63f9824f"
          },
          {
            "display": "MSI status analysis",
            "reference": "urn:uuid:64b91716-6431-41bd-8fd4-7ac99bebdee9"
          }
        ],
        "meta": {
          "profile": [
            "http://hl7.org/fhir/uv/genomics-reporting/StructureDefinition/grouper"
          ]
        },
        "resourceType": "Observation",
        "status": "final"
      }
    },
    {
      "fullUrl": "urn:uuid:16fdd5fc-e665-48af-99e4-48d603f3e12e",
      "request": {
        "method": "POST",
        "url": "Observation"
      },
      "resource": {
        "category": [
          {
            "coding": [
              {
                "code": "laboratory",
                "system": "http://terminology.hl7.org/CodeSystem/observation-category"
              }
            ]
          }
        ],
        "code": {
          "coding": [
            {
              "code": "grouper",
              "system": "http://hl7.org/fhir/uv/genomics-reporting/CodeSystem/TbdCodes",
              "display": "grouper"
            }
          ]
        },
        "hasMember": [
          {
            "display": "Therapy match result 1",
            "reference": "urn:uuid:1bf9642d-fd1c-4819-8c5d-44fae4bad524"
          },
          {
            "display": "Therapy match result 2",
            "reference": "urn:uuid:1301943b-55db-4adf-8355-3635f7268a1b"
          },
          {
            "display": "Therapy match result 3",
            "reference": "urn:uuid:05713d1c-0df5-46d5-a5a9-2085eef56c20"
          },
          {
            "display": "Therapy match result 4",
            "reference": "urn:uuid:294f1401-e2eb-4df1-b6d2-09e1b7a6eca4"
          }
        ],
        "meta": {
          "profile": [
            "http://hl7.org/fhir/uv/genomics-reporting/StructureDefinition/grouper"
          ]
        },
        "resourceType": "Observation",
        "status": "final"
      }
    },
    {
      "fullUrl": "urn:uuid:ad7a499b-a43b-4cc8-bf46-cac62d9ecae5",
      "request": {
        "method": "POST",
        "url": "DiagnosticReport"
      },
      "resource": {
        "code": {
          "text": "Genetic analysis report"
        },
        "meta": {
          "profile": [
            "http://hl7.org/fhir/uv/genomics-reporting/StructureDefinition/genomics-report"
          ]
        },
        "performer": [
          {
            "reference": "urn:uuid:a48256f8-db37-44e0-a0f6-d7af16c7c9ef"
          }
        ],
        "resourceType": "DiagnosticReport",
        "result": [
          {
            "display": "Variants and other biomarker tests",
            "reference": "urn:uuid:16fdd5fc-e665-48af-99e4-48d603f3e12f"
          },
          {
            "display": "Therapy Match Results",
            "reference": "urn:uuid:16fdd5fc-e665-48af-99e4-48d603f3e12e"
          }
        ],
        "specimen": [
          {
            "reference": "urn:uuid:a5d6a6a9-4859-480e-85b2-56974fef3b9d"
          }
        ],
        "status": "final",
        "subject": {
          "reference": "urn:uuid:d0b4affa-91d6-46d1-af01-b30d9f16ef6d"
        }
      }
    }
  ],
  "type": "transaction"
}
