<!-- Observation/?component-code=http://loinc.org|81263-6&_include:iterate=Observation:has-member -->

<!-- Observation/?component-code=http://loinc.org|81263-6&_include=Observation:has-member -->

<!-- Observation/?component-code=http://loinc.org|48004-6&_revinclude=Observation:has-member -->



<Bundle xmlns="http://hl7.org/fhir" xmlns:xsi="http://www.w3.org/2001/XMLSchema-instance" xsi:schemaLocation="http://hl7.org/fhir ../../src-generated/schemas/fhir-single.xsd">
   <id value="compound-heterozygote"/>
   <type value="transaction"/>

   <entry>
      <fullUrl value="urn:uuid:16fdd5fc-e665-48af-99e4-48d603f3e12d"/>
      <resource>
         <Observation xmlns="http://hl7.org/fhir">
            <meta>
               <profile value="http://hl7.org/fhir/uv/genomics-reporting/StructureDefinition/variant"/>
            </meta>
            <status value="final"/>
            <category>
               <coding>
                  <system value="http://terminology.hl7.org/CodeSystem/observation-category"/>
                  <code value="laboratory"/>
               </coding>
            </category>
            <code>
               <coding>
                  <system value="http://loinc.org"/>
                  <code value="69548-6"/>
                  <display value="Genetic variant assessment"/>
               </coding>
            </code>
            <valueCodeableConcept>
               <coding>
                  <system value="http://loinc.org"/>
                  <code value="LA9633-4"/>
                  <display value="Present"/>
               </coding>
            </valueCodeableConcept>

            <component>
               <code>
                  <coding>
                     <system value="http://loinc.org"/>
                     <code value="48004-6"/>
                     <display value="DNA change (c.HGVS)"/>
                  </coding>
               </code>
               <valueCodeableConcept>
                  <coding>
                     <system value="http://varnomen.hgvs.org"/>
                     <code value="NM_022787.3:c.769G>A"/>
                     <display value="NM_022787.3:c.769G>A"/>
                  </coding>
               </valueCodeableConcept>
            </component>
         </Observation>
      </resource>
      <request>
         <method value="POST"/>
         <url value="Observation"/>
      </request>
   </entry>
   <entry>
      <fullUrl value="urn:uuid:16fdd5fc-e665-48af-99e4-48d603f3e12e"/>
      <resource>
         <Observation xmlns="http://hl7.org/fhir">
            <meta>
               <profile value="http://hl7.org/fhir/uv/genomics-reporting/StructureDefinition/variant"/>
            </meta>
            <status value="final"/>
            <category>
               <coding>
                  <system value="http://terminology.hl7.org/CodeSystem/observation-category"/>
                  <code value="laboratory"/>
               </coding>
            </category>
            <code>
               <coding>
                  <system value="http://loinc.org"/>
                  <code value="69548-6"/>
                  <display value="Genetic variant assessment"/>
               </coding>
            </code>
            <valueCodeableConcept>
               <coding>
                  <system value="http://loinc.org"/>
                  <code value="LA9633-4"/>
                  <display value="Present"/>
               </coding>
            </valueCodeableConcept>
            <component>
               <code>
                  <coding>
                     <system value="http://loinc.org"/>
                     <code value="48004-6"/>
                     <display value="DNA change (c.HGVS)"/>
                  </coding>
               </code>
               <valueCodeableConcept>
                  <coding>
                     <system value="http://varnomen.hgvs.org"/>
                     <code value="NM_022787.3:c.53A>G"/>
                     <display value="NM_022787.3:c.53A>G"/>
                  </coding>
               </valueCodeableConcept>
            </component>
         </Observation>
      </resource>
      <request>
         <method value="POST"/>
         <url value="Observation"/>
      </request>
   </entry>
   <entry>
      <fullUrl value="urn:uuid:16fdd5fc-e665-48af-99e4-48d603f3e12a"/>
      <resource>
         <Observation xmlns="http://hl7.org/fhir">
            <meta>
               <profile value="http://hl7.org/fhir/uv/genomics-reporting/StructureDefinition/variant"/>
            </meta>
            <status value="final"/>
            <category>
               <coding>
                  <system value="http://terminology.hl7.org/CodeSystem/observation-category"/>
                  <code value="laboratory"/>
               </coding>
            </category>
            <code>
               <coding>
                  <system value="http://loinc.org"/>
                  <code value="69548-6"/>
                  <display value="Genetic variant assessment"/>
               </coding>
            </code>
            <valueCodeableConcept>
               <coding>
                  <system value="http://loinc.org"/>
                  <code value="LA9633-4"/>
                  <display value="Present"/>
               </coding>
            </valueCodeableConcept>

            <hasMember>
               <reference value="urn:uuid:16fdd5fc-e665-48af-99e4-48d603f3e12e"/>
               <display value="NM_022787.3:c.53A>G"/>
            </hasMember>
            <hasMember>
               <reference value="urn:uuid:16fdd5fc-e665-48af-99e4-48d603f3e12d"/>
               <display value="NM_022787.3:c.769G>A"/>
            </hasMember>

            <component>
               <code>
                  <coding>
                     <system value="http://loinc.org"/>
                     <code value="81263-6"/>
                     <display value="Complex Variant Type"/>
                  </coding>
               </code>
               <valueCodeableConcept>
                  <coding>
                     <system value="http://loinc.org"/>
                     <code value="LA26217-2"/>
                     <display value="Compound heterozygous"/>
                  </coding>
               </valueCodeableConcept>
            </component>
         </Observation>
      </resource>
      <request>
         <method value="POST"/>
         <url value="Observation"/>
      </request>
   </entry>
</Bundle>
