{
  "resourceType": "Bundle",
  "type": "collection",
  "entry": [
    {
      "resourceType": "DiagnosticReport",
      "id": "dr-026227a2d7ba4",
      "meta": {
        "profile": [
          "http://hl7.org/fhir/uv/genomics-reporting/StructureDefinition/genomics-report"
        ]
      },
      "status": "final",
      "category": [
        {
          "coding": [
            {
              "system": "http://terminology.hl7.org/CodeSystem/observation-category",
              "code": "GE",
              "display": "Genetics"
            }
          ]
        }
      ],
      "code": {
        "coding": [
          {
            "system": "http://loinc.org",
            "code": "81247-9",
            "display": "Master HL7 genetic variant reporting panel"
          }
        ]
      },
      "subject": {
        "reference": "Patient/HG00403"
      },
      "issued": "2019-12-18T18:15:04+00:00",
      "result": [
        {
          "reference": "#rs-a43751ad52c94"
        },
        {
          "reference": "#dv-5a7f781e83514"
        },
        {
          "reference": "#sid-dc2a23f0322c4"
        }
      ]
    },
    {
      "resourceType": "Observation",
      "id": "rs-a43751ad52c94",
      "meta": {
        "profile": [
          "http://hl7.org/fhir/uv/genomics-reporting/StructureDefinition/region-studied"
        ]
      },
      "status": "final",
      "category": [
        {
          "coding": [
            {
              "system": "http://terminology.hl7.org/CodeSystem/observation-category",
              "code": "laboratory"
            }
          ]
        }
      ],
      "code": {
        "coding": [
          {
            "system": "http://loinc.org",
            "code": "53041-0",
            "display": "DNA region of interest panel"
          }
        ]
      },
      "subject": {
        "reference": "Patient/HG00403"
      },
      "component": [
        {
          "code": {
            "coding": [
              {
                "system": "http://loinc.org",
                "code": "51959-5",
                "display": "Range(s) of DNA sequence examined"
              }
            ]
          },
          "valueRange": {
            "low": {
              "value": 1
            },
            "high": {
              "value": 500
            }
          }
        },
        {
          "code": {
            "coding": [
              {
                "system": "http://loinc.org",
                "code": "92822-6",
                "display": "Genomic coord system"
              }
            ]
          },
          "valueCodeableConcept": {
            "coding": [
              {
                "system": "http://loinc.org",
                "code": "LA30100-4",
                "display": "0-based interval counting"
              }
            ]
          }
        },
        {
          "code": {
            "coding": [
              {
                "system": "http://loinc.org",
                "code": "48013-7",
                "display": "Genomic reference sequence ID"
              }
            ]
          },
          "valueCodeableConcept": {
            "coding": [
              {
                "system": "http://www.ncbi.nlm.nih.gov/nuccore",
                "code": "NC_000001.10"
              }
            ]
          }
        }
      ]
    },
    {
      "resourceType": "Observation",
      "id": "dv-5a7f781e83514",
      "meta": {
        "profile": [
          "http://hl7.org/fhir/uv/genomics-reporting/StructureDefinition/variant"
        ]
      },
      "status": "final",
      "category": [
        {
          "coding": [
            {
              "system": "http://terminology.hl7.org/CodeSystem/observation-category",
              "code": "laboratory"
            }
          ]
        }
      ],
      "code": {
        "coding": [
          {
            "system": "http://loinc.org",
            "code": "69548-6",
            "display": "Genetic variant assessment"
          }
        ]
      },
      "subject": {
        "reference": "Patient/HG00403"
      },
      "valueCodeableConcept": {
        "coding": [
          {
            "system": "http://loinc.org",
            "code": "LA9633-4",
            "display": "Present"
          }
        ]
      },
      "component": [
        {
          "code": {
            "coding": [
              {
                "system": "http://loinc.org",
                "code": "48002-0",
                "display": "Genomic source class [Type]"
              }
            ]
          },
          "valueCodeableConcept": {
            "coding": [
              {
                "system": "http://loinc.org",
                "code": "LA6683-2",
                "display": "Germline"
              }
            ]
          }
        },
        {
          "code": {
            "coding": [
              {
                "system": "http://loinc.org",
                "code": "62374-4",
                "display": "Human reference sequence assembly version"
              }
            ]
          },
          "valueCodeableConcept": {
            "coding": [
              {
                "system": "http://loinc.org",
                "code": "LA14029-5",
                "display": "GRCh37"
              }
            ]
          }
        },
        {
          "code": {
            "coding": [
              {
                "system": "http://loinc.org",
                "code": "48013-7",
                "display": "Genomic reference sequence ID"
              }
            ]
          },
          "valueCodeableConcept": {
            "coding": [
              {
                "system": "http://www.ncbi.nlm.nih.gov/nuccore",
                "code": "NC_000001.10"
              }
            ]
          }
        },
        {
          "code": {
            "coding": [
              {
                "system": "http://loinc.org",
                "code": "53034-5",
                "display": "Allelic state"
              }
            ]
          },
          "valueCodeableConcept": {
            "coding": [
              {
                "system": "http://loinc.org",
                "code": "LA6706-1",
                "display": "heterozygous"
              }
            ]
          }
        },
        {
          "code": {
            "coding": [
              {
                "system": "http://loinc.org",
                "code": "69547-8",
                "display": "Genomic Ref allele [ID]"
              }
            ]
          },
          "valueString": "A"
        },
        {
          "code": {
            "coding": [
              {
                "system": "http://loinc.org",
                "code": "69551-0",
                "display": "Genomic Alt allele [ID]"
              }
            ]
          },
          "valueString": "G"
        },
        {
          "code": {
            "coding": [
              {
                "system": "http://loinc.org",
                "code": "92822-6",
                "display": "Genomic coord system"
              }
            ]
          },
          "valueCodeableConcept": {
            "coding": [
              {
                "system": "http://loinc.org",
                "code": "LA30100-4",
                "display": "0-based interval counting"
              }
            ]
          }
        },
        {
          "code": {
            "coding": [
              {
                "system": "http://hl7.org/fhir/uv/genomics-reporting/CodeSystem/tbd-codes",
                "code": "exact-start-end",
                "display": "Variant exact start and end"
              }
            ]
          },
          "valueRange": {
            "low": {
              "value": 300
            }
          }
        }
      ]
    },
    {
      "resourceType": "Observation",
      "id": "sid-dc2a23f0322c4",
      "meta": {
        "profile": [
          "http://hl7.org/fhir/uv/genomics-reporting/StructureDefinition/sequence-phase-relationship"
        ]
      },
      "status": "final",
      "category": [
        {
          "coding": [
            {
              "system": "http://terminology.hl7.org/CodeSystem/observation-category",
              "code": "laboratory"
            }
          ]
        }
      ],
      "code": {
        "coding": [
          {
            "system": "http://loinc.org",
            "code": "82120-7",
            "display": "Allelic phase"
          }
        ]
      },
      "subject": {
        "reference": "Patient/HG00403"
      },
      "valueCodeableConcept": {
        "coding": [
          {
            "system": "http://hl7.org/fhir/uv/genomics-reporting/CodeSystem/seq-phase-relationship",
            "code": "Cis",
            "display": "Cis"
          }
        ]
      },
      "derivedFrom": [
        {
          "reference": "#dv-5a7f781e83514"
        },
        {
          "reference": "#dv-5a7f781e83514"
        }
      ]
    }
  ]
}

