<Bundle xmlns="http://hl7.org/fhir" xmlns:xsi="http://www.w3.org/2001/XMLSchema-instance" xsi:schemaLocation="http://hl7.org/fhir ../../src-generated/schemas/fhir-single.xsd">
   <id value="oncologyexamples-r4"/>
   <type value="transaction"/>
   <entry>
      <fullUrl value="urn:uuid:d0b4affa-91d6-46d1-af01-b30d9f16ef6d"/>
      <resource>
         <Patient xmlns="http://hl7.org/fhir">
            <identifier>
               <value value="1007"/>
            </identifier>
            <name>
               <given value="Carrot"/>
               <given value="John"/>
               <given value="Mr"/>
            </name>
            <gender value="male"/>
            <birthDate value="1962-12-31"/>
            <generalPractitioner>
               <reference value="urn:uuid:a48256f8-db37-44e0-a0f6-d7af16c7c9ef"/>
            </generalPractitioner>
         </Patient>
      </resource>
      <request>
         <method value="POST"/>
         <url value="Patient"/>
      </request>
   </entry>
   <entry>
      <fullUrl value="urn:uuid:a48256f8-db37-44e0-a0f6-d7af16c7c9ef"/>
      <resource>
         <Practitioner xmlns="http://hl7.org/fhir">
            <identifier>
               <value value="4654765876"/>
            </identifier>
            <name>
               <given value="Akerman"/>
               <given value="Philip"/>
               <given value="Prof"/>
            </name>
            <address>
               <city value="Castro Valley"/>
               <state value="CA"/>
            </address>
         </Practitioner>
      </resource>
      <request>
         <method value="POST"/>
         <url value="Practitioner"/>
      </request>
   </entry>
   <entry>
      <fullUrl value="urn:uuid:a5d6a6a9-4859-480e-85b2-56974fef3b9d"/>
      <resource>
         <Specimen xmlns="http://hl7.org/fhir">
            <meta>
               <profile value="http://hl7.org/fhir/uv/genomics-reporting/StructureDefinition/specimen"/>
            </meta>
            <identifier>
               <value value="076e1948-2217-11e9-94d8-12e241dc1f66"/>
            </identifier>
            <status value="available"/>
            <subject>
               <reference value="urn:uuid:d0b4affa-91d6-46d1-af01-b30d9f16ef6d"/>
            </subject>
            <collection>
               <collector>
                  <reference value="urn:uuid:a48256f8-db37-44e0-a0f6-d7af16c7c9ef"/>
               </collector>
            </collection>
         </Specimen>
      </resource>
      <request>
         <method value="POST"/>
         <url value="Specimen"/>
      </request>
   </entry>
   <entry>
      <fullUrl value="urn:uuid:40e85eda-4d31-4bd2-a5a0-c39d63f9824f"/>
      <resource>
         <Observation xmlns="http://hl7.org/fhir">
            <status value="final"/>
            <code>
               <text value="Tumor Mutational Burden"/>
            </code>
            <subject>
               <reference value="urn:uuid:d0b4affa-91d6-46d1-af01-b30d9f16ef6d"/>
            </subject>
            <performer>
               <reference value="urn:uuid:a48256f8-db37-44e0-a0f6-d7af16c7c9ef"/>
            </performer>
            <valueQuantity>
               <value value="25.0"/>
               <unit value="somatic variants per megabase of sequenced DNA"/>
               <system value="http://unitsofmeasure.org"/>
               <code value="v/Mb"/>
            </valueQuantity>
            <specimen>
               <reference value="urn:uuid:a5d6a6a9-4859-480e-85b2-56974fef3b9d"/>
            </specimen>
         </Observation>
      </resource>
      <request>
         <method value="POST"/>
         <url value="Observation"/>
      </request>
   </entry>
   <entry>
      <fullUrl value="urn:uuid:64b91716-6431-41bd-8fd4-7ac99bebdee9"/>
      <resource>
         <Observation xmlns="http://hl7.org/fhir">
            <status value="final"/>
            <code>
               <text value="MSI status"/>
            </code>
            <subject>
               <reference value="urn:uuid:d0b4affa-91d6-46d1-af01-b30d9f16ef6d"/>
            </subject>
            <performer>
               <reference value="urn:uuid:a48256f8-db37-44e0-a0f6-d7af16c7c9ef"/>
            </performer>
            <valueString value="High"/>
            <specimen>
               <reference value="urn:uuid:a5d6a6a9-4859-480e-85b2-56974fef3b9d"/>
            </specimen>
         </Observation>
      </resource>
      <request>
         <method value="POST"/>
         <url value="Observation"/>
      </request>
   </entry>
   <entry>
      <fullUrl value="urn:uuid:16fdd5fc-e665-48af-99e4-48d603f3e12d"/>
      <resource>
         <Observation xmlns="http://hl7.org/fhir">
            <meta>
               <profile value="http://hl7.org/fhir/uv/genomics-reporting/StructureDefinition/variant"/>
            </meta>
            <status value="final"/>
            <category>
               <coding>
                  <system value="http://terminology.hl7.org/CodeSystem/observation-category"/>
                  <code value="laboratory"/>
               </coding>
            </category>
            <code>
               <coding>
                  <system value="http://loinc.org"/>
                  <code value="69548-6"/>
                  <display value="Genetic variant assessment"/>
               </coding>
            </code>
            <subject>
               <reference value="urn:uuid:d0b4affa-91d6-46d1-af01-b30d9f16ef6d"/>
            </subject>
            <performer>
               <reference value="urn:uuid:a48256f8-db37-44e0-a0f6-d7af16c7c9ef"/>
            </performer>
            <valueCodeableConcept>
               <coding>
                  <system value="http://loinc.org"/>
                  <code value="LA9633-4"/>
                  <display value="Present"/>
               </coding>
            </valueCodeableConcept>
            <method>
               <coding>
                  <system value="http://loinc.org"/>
                  <code value="LA26398-0"/>
                  <display value="Sequencing"/>
               </coding>
            </method>
            <specimen>
               <reference value="urn:uuid:a5d6a6a9-4859-480e-85b2-56974fef3b9d"/>
            </specimen>
            <component>
               <code>
                  <coding>
                     <system value="http://loinc.org"/>
                     <code value="81290-9"/>
                     <display value="Genomic DNA change (gHGVS)"/>
                  </coding>
               </code>
               <valueCodeableConcept>
                  <coding>
                     <system value="http://varnomen.hgvs.org"/>
                     <display value="9:g.5073770G>T"/>
                  </coding>
               </valueCodeableConcept>
            </component>
            <component>
               <code>
                  <coding>
                     <system value="http://loinc.org"/>
                     <code value="48005-3"/>
                     <display value="Amino acid change (pHGVS)"/>
                  </coding>
               </code>
               <valueCodeableConcept>
                  <coding>
                     <system value="http://varnomen.hgvs.org"/>
                     <display value="p.Val617Phe"/>
                  </coding>
               </valueCodeableConcept>
            </component>
            <component>
               <code>
                  <coding>
                     <system value="http://loinc.org"/>
                     <code value="48006-1"/>
                     <display value="Amino acid change type"/>
                  </coding>
               </code>
               <valueCodeableConcept>
                  <coding>
                     <system value="http://loinc.org"/>
                     <code value="LA6698-0"/>
                     <display value="Missense"/>
                  </coding>
               </valueCodeableConcept>
            </component>
            <component>
               <code>
                  <coding>
                     <system value="http://loinc.org"/>
                     <code value="48002-0"/>
                     <display value="Genomic source class"/>
                  </coding>
               </code>
               <valueCodeableConcept>
                  <coding>
                     <system value="http://loinc.org"/>
                     <code value="LA6683-2"/>
                     <display value="Germline"/>
                  </coding>
               </valueCodeableConcept>
            </component>
            <component>
               <code>
                  <coding>
                     <system value="http://loinc.org"/>
                     <code value="48018-6"/>
                     <display value="Gene studied ID"/>
                  </coding>
               </code>
               <valueCodeableConcept>
                  <coding>
                     <system value="https://www.genenames.org/"/>
                     <display value="JAK2"/>
                  </coding>
               </valueCodeableConcept>
            </component>
         </Observation>
      </resource>
      <request>
         <method value="POST"/>
         <url value="Observation"/>
      </request>
   </entry>
   <entry>
      <fullUrl value="urn:uuid:772de7d7-e1bd-4183-bdb5-cea8eda317cd"/>
      <resource>
         <Observation xmlns="http://hl7.org/fhir">
            <meta>
               <profile value="http://hl7.org/fhir/uv/genomics-reporting/StructureDefinition/variant"/>
            </meta>
            <status value="final"/>
            <category>
               <coding>
                  <system value="http://terminology.hl7.org/CodeSystem/observation-category"/>
                  <code value="laboratory"/>
               </coding>
            </category>
            <code>
               <coding>
                  <system value="http://loinc.org"/>
                  <code value="69548-6"/>
                  <display value="Genetic variant assessment"/>
               </coding>
            </code>
            <subject>
               <reference value="urn:uuid:d0b4affa-91d6-46d1-af01-b30d9f16ef6d"/>
            </subject>
            <performer>
               <reference value="urn:uuid:a48256f8-db37-44e0-a0f6-d7af16c7c9ef"/>
            </performer>
            <valueCodeableConcept>
               <coding>
                  <system value="http://loinc.org"/>
                  <code value="LA9633-4"/>
                  <display value="Present"/>
               </coding>
            </valueCodeableConcept>
            <method>
               <coding>
                  <system value="http://loinc.org"/>
                  <code value="LA26398-0"/>
                  <display value="Sequencing"/>
               </coding>
            </method>
            <specimen>
               <reference value="urn:uuid:a5d6a6a9-4859-480e-85b2-56974fef3b9d"/>
            </specimen>
            <component>
               <code>
                  <coding>
                     <system value="http://loinc.org"/>
                     <code value="81290-9"/>
                     <display value="Genomic DNA change (gHGVS)"/>
                  </coding>
               </code>
               <valueCodeableConcept>
                  <coding>
                     <system value="http://varnomen.hgvs.org"/>
                     <display value="4:g.55972974T>A"/>
                  </coding>
               </valueCodeableConcept>
            </component>
            <component>
               <code>
                  <coding>
                     <system value="http://loinc.org"/>
                     <code value="48005-3"/>
                     <display value="Amino acid change (pHGVS)"/>
                  </coding>
               </code>
               <valueCodeableConcept>
                  <coding>
                     <system value="http://varnomen.hgvs.org"/>
                     <display value="p.Gln472His"/>
                  </coding>
               </valueCodeableConcept>
            </component>
            <component>
               <code>
                  <coding>
                     <system value="http://loinc.org"/>
                     <code value="48006-1"/>
                     <display value="Amino acid change type"/>
                  </coding>
               </code>
               <valueCodeableConcept>
                  <coding>
                     <system value="http://loinc.org"/>
                     <code value="LA6698-0"/>
                     <display value="Missense"/>
                  </coding>
               </valueCodeableConcept>
            </component>
            <component>
               <code>
                  <coding>
                     <system value="http://loinc.org"/>
                     <code value="48002-0"/>
                     <display value="Genomic source class"/>
                  </coding>
               </code>
               <valueCodeableConcept>
                  <coding>
                     <system value="http://loinc.org"/>
                     <code value="LA6683-2"/>
                     <display value="Germline"/>
                  </coding>
               </valueCodeableConcept>
            </component>
            <component>
               <code>
                  <coding>
                     <system value="http://loinc.org"/>
                     <code value="48018-6"/>
                     <display value="Gene studied ID"/>
                  </coding>
               </code>
               <valueCodeableConcept>
                  <coding>
                     <system value="https://www.genenames.org/"/>
                     <display value="KDR"/>
                  </coding>
               </valueCodeableConcept>
            </component>
         </Observation>
      </resource>
      <request>
         <method value="POST"/>
         <url value="Observation"/>
      </request>
   </entry>
   <entry>
      <fullUrl value="urn:uuid:b33eb7ec-d83e-49d2-b0f3-729d024ebe01"/>
      <resource>
         <Observation xmlns="http://hl7.org/fhir">
            <meta>
               <profile value="http://hl7.org/fhir/uv/genomics-reporting/StructureDefinition/variant"/>
            </meta>
            <status value="final"/>
            <category>
               <coding>
                  <system value="http://terminology.hl7.org/CodeSystem/observation-category"/>
                  <code value="laboratory"/>
               </coding>
            </category>
            <code>
               <coding>
                  <system value="http://loinc.org"/>
                  <code value="69548-6"/>
                  <display value="Genetic variant assessment"/>
               </coding>
            </code>
            <subject>
               <reference value="urn:uuid:d0b4affa-91d6-46d1-af01-b30d9f16ef6d"/>
            </subject>
            <performer>
               <reference value="urn:uuid:a48256f8-db37-44e0-a0f6-d7af16c7c9ef"/>
            </performer>
            <valueCodeableConcept>
               <coding>
                  <system value="http://loinc.org"/>
                  <code value="LA9633-4"/>
                  <display value="Present"/>
               </coding>
            </valueCodeableConcept>
            <method>
               <coding>
                  <system value="http://loinc.org"/>
                  <code value="LA26398-0"/>
                  <display value="Sequencing"/>
               </coding>
            </method>
            <specimen>
               <reference value="urn:uuid:a5d6a6a9-4859-480e-85b2-56974fef3b9d"/>
            </specimen>
            <component>
               <code>
                  <coding>
                     <system value="http://loinc.org"/>
                     <code value="81290-9"/>
                     <display value="Genomic DNA change (gHGVS)"/>
                  </coding>
               </code>
               <valueCodeableConcept>
                  <coding>
                     <system value="http://varnomen.hgvs.org"/>
                     <display value="2:g.212578380del"/>
                  </coding>
               </valueCodeableConcept>
            </component>
            <component>
               <code>
                  <coding>
                     <system value="http://loinc.org"/>
                     <code value="48005-3"/>
                     <display value="Amino acid change (pHGVS)"/>
                  </coding>
               </code>
               <valueCodeableConcept>
                  <coding>
                     <system value="http://varnomen.hgvs.org"/>
                  </coding>
               </valueCodeableConcept>
            </component>
            <component>
               <code>
                  <coding>
                     <system value="http://loinc.org"/>
                     <code value="48006-1"/>
                     <display value="Amino acid change type"/>
                  </coding>
               </code>
               <valueCodeableConcept>
                  <coding>
                     <system value="http://loinc.org"/>
                     <code value="LA6698-0"/>
                     <display value="Missense"/>
                  </coding>
               </valueCodeableConcept>
            </component>
            <component>
               <code>
                  <coding>
                     <system value="http://loinc.org"/>
                     <code value="48002-0"/>
                     <display value="Genomic source class"/>
                  </coding>
               </code>
               <valueCodeableConcept>
                  <coding>
                     <system value="http://loinc.org"/>
                     <code value="LA6683-2"/>
                     <display value="Germline"/>
                  </coding>
               </valueCodeableConcept>
            </component>
            <component>
               <code>
                  <coding>
                     <system value="http://loinc.org"/>
                     <code value="48018-6"/>
                     <display value="Gene studied ID"/>
                  </coding>
               </code>
               <valueCodeableConcept>
                  <coding>
                     <system value="https://www.genenames.org/"/>
                     <display value="ERBB4"/>
                  </coding>
               </valueCodeableConcept>
            </component>
         </Observation>
      </resource>
      <request>
         <method value="POST"/>
         <url value="Observation"/>
      </request>
   </entry>
   <entry>
      <fullUrl value="urn:uuid:1bf9642d-fd1c-4819-8c5d-44fae4bad524"/>
      <resource>
         <Observation xmlns="http://hl7.org/fhir">
            <meta>
               <profile value="http://hl7.org/fhir/uv/genomics-reporting/StructureDefinition/somatic-predictive"/>
            </meta>
            <status value="final"/>
            <category>
               <coding>
                  <system value="http://terminology.hl7.org/CodeSystem/observation-category"/>
                  <code value="laboratory"/>
               </coding>
            </category>
            <code>
               <coding>
                  <system value="http://hl7.org/fhir/uv/genomics-reporting/CodeSystem/tbd-codes"/>
                  <code value="somatic-predictive"/>
                  <display value="Somatic variant predicted effect on Cancer medication"/>
               </coding>
            </code>
            <valueCodeableConcept>
               <text value="Responsive"/>
            </valueCodeableConcept>
            <subject>
               <reference value="urn:uuid:d0b4affa-91d6-46d1-af01-b30d9f16ef6d"/>
            </subject>
            <performer>
               <reference value="urn:uuid:a48256f8-db37-44e0-a0f6-d7af16c7c9ef"/>
            </performer>
            <method>
               <coding>
                  <system value="http://loinc.org"/>
                  <code value="LA26811-2"/>
                  <display value="Computational analysis"/>
               </coding>
            </method>
            <specimen>
               <reference value="urn:uuid:a5d6a6a9-4859-480e-85b2-56974fef3b9d"/>
            </specimen>
            <derivedFrom>
               <reference value="urn:uuid:16fdd5fc-e665-48af-99e4-48d603f3e12d"/>
            </derivedFrom>
            <component>
               <code>
                  <coding>
                     <system value="http://loinc.org"/>
                     <code value="93044-6"/>
                     <display value="Level of Evidence"/>
                  </coding>
               </code>
               <valueCodeableConcept>
                  <text value="AMP Guidelines"/>
               </valueCodeableConcept>
            </component>
            <component>
               <code>
                  <coding>
                     <system value="http://hl7.org/fhir/uv/genomics-reporting/CodeSystem/tbd-codes"/>
                     <code value="associated-cancer"/>
                  </coding>
               </code>
               <valueCodeableConcept>
                  <text value="Polycythemia vera (PV)"/>
               </valueCodeableConcept>
            </component>
            <component>
               <code>
                  <coding>
                     <system value="http://hl7.org/fhir/uv/genomics-reporting/CodeSystem/tbd-codes"/>
                     <code value="somatic-predictive-medication"/>
                  </coding>
               </code>
               <valueCodeableConcept>
                  <text value="Ruxolitinib"/>
               </valueCodeableConcept>
            </component>
         </Observation>

      </resource>
      <request>
         <method value="POST"/>
         <url value="Observation"/>
      </request>
   </entry>
   <entry>
      <fullUrl value="urn:uuid:1301943b-55db-4adf-8355-3635f7268a1b"/>
      <resource>
         <Observation xmlns="http://hl7.org/fhir">
            <meta>
               <profile value="http://hl7.org/fhir/uv/genomics-reporting/StructureDefinition/somatic-predictive"/>
            </meta>
            <status value="final"/>
            <category>
               <coding>
                  <system value="http://terminology.hl7.org/CodeSystem/observation-category"/>
                  <code value="laboratory"/>
               </coding>
            </category>
            <code>
               <coding>
                  <system value="http://hl7.org/fhir/uv/genomics-reporting/CodeSystem/tbd-codes"/>
                  <code value="somatic-predictive"/>
                  <display value="Somatic variant predicted effect on Cancer medication"/>
               </coding>
            </code>
            <valueCodeableConcept>
               <text value="Responsive"/>
            </valueCodeableConcept>
            <subject>
               <reference value="urn:uuid:d0b4affa-91d6-46d1-af01-b30d9f16ef6d"/>
            </subject>
            <performer>
               <reference value="urn:uuid:a48256f8-db37-44e0-a0f6-d7af16c7c9ef"/>
            </performer>
            <method>
               <coding>
                  <system value="http://loinc.org"/>
                  <code value="LA26811-2"/>
                  <display value="Computational analysis"/>
               </coding>
            </method>
            <specimen>
               <reference value="urn:uuid:a5d6a6a9-4859-480e-85b2-56974fef3b9d"/>
            </specimen>
            <derivedFrom>
               <reference value="urn:uuid:16fdd5fc-e665-48af-99e4-48d603f3e12d"/>
            </derivedFrom>
            <component>
               <code>
                  <coding>
                     <system value="http://loinc.org"/>
                     <code value="93044-6"/>
                     <display value="Level of Evidence"/>
                  </coding>
               </code>
               <valueCodeableConcept>
                  <text value="AMP Guidelines"/>
               </valueCodeableConcept>
            </component>
            <component>
               <code>
                  <coding>
                     <system value="http://hl7.org/fhir/uv/genomics-reporting/CodeSystem/tbd-codes"/>
                     <code value="associated-cancer"/>
                  </coding>
               </code>
               <valueCodeableConcept>
                  <text value="Polycythemia vera (PV)"/>
               </valueCodeableConcept>
            </component>
            <component>
               <code>
                  <coding>
                     <system value="http://hl7.org/fhir/uv/genomics-reporting/CodeSystem/tbd-codes"/>
                     <code value="somatic-predictive-medication"/>
                  </coding>
               </code>
               <valueCodeableConcept>
                  <text value="AT9283"/>
               </valueCodeableConcept>
            </component>
         </Observation>
      </resource>
      <request>
         <method value="POST"/>
         <url value="Observation"/>
      </request>
   </entry>
   <entry>
      <fullUrl value="urn:uuid:05713d1c-0df5-46d5-a5a9-2085eef56c20"/>
      <resource>
         <Observation xmlns="http://hl7.org/fhir">
            <meta>
               <profile value="http://hl7.org/fhir/uv/genomics-reporting/StructureDefinition/somatic-predictive"/>
            </meta>
            <status value="final"/>
            <category>
               <coding>
                  <system value="http://terminology.hl7.org/CodeSystem/observation-category"/>
                  <code value="laboratory"/>
               </coding>
            </category>
            <code>
               <coding>
                  <system value="http://hl7.org/fhir/uv/genomics-reporting/CodeSystem/tbd-codes"/>
                  <code value="somatic-predictive"/>
                  <display value="Somatic variant predicted effect on Cancer medication"/>
               </coding>
            </code>
            <valueCodeableConcept>
               <text value="Responsive"/>
            </valueCodeableConcept>
            <subject>
               <reference value="urn:uuid:d0b4affa-91d6-46d1-af01-b30d9f16ef6d"/>
            </subject>
            <performer>
               <reference value="urn:uuid:a48256f8-db37-44e0-a0f6-d7af16c7c9ef"/>
            </performer>
            <method>
               <coding>
                  <system value="http://loinc.org"/>
                  <code value="LA26811-2"/>
                  <display value="Computational analysis"/>
               </coding>
            </method>
            <specimen>
               <reference value="urn:uuid:a5d6a6a9-4859-480e-85b2-56974fef3b9d"/>
            </specimen>
            <derivedFrom>
               <reference value="urn:uuid:16fdd5fc-e665-48af-99e4-48d603f3e12d"/>
            </derivedFrom>
            <component>
               <code>
                  <coding>
                     <system value="http://loinc.org"/>
                     <code value="93044-6"/>
                     <display value="Level of Evidence"/>
                  </coding>
               </code>
               <valueCodeableConcept>
                  <text value="AMP Guidelines"/>
               </valueCodeableConcept>
            </component>
            <component>
               <code>
                  <coding>
                     <system value="http://hl7.org/fhir/uv/genomics-reporting/CodeSystem/tbd-codes"/>
                     <code value="associated-cancer"/>
                  </coding>
               </code>
               <valueCodeableConcept>
                  <text value="Polycythemia vera (PV)"/>
               </valueCodeableConcept>
            </component>
            <component>
               <code>
                  <coding>
                     <system value="http://hl7.org/fhir/uv/genomics-reporting/CodeSystem/tbd-codes"/>
                     <code value="somatic-predictive-medication"/>
                  </coding>
               </code>
               <valueCodeableConcept>
                  <text value="SNX-5422"/>
               </valueCodeableConcept>
            </component>
         </Observation>


      </resource>
      <request>
         <method value="POST"/>
         <url value="Observation"/>
      </request>
   </entry>
   <entry>
      <fullUrl value="urn:uuid:294f1401-e2eb-4df1-b6d2-09e1b7a6eca4"/>
      <resource>
         <Observation xmlns="http://hl7.org/fhir">
            <meta>
               <profile value="http://hl7.org/fhir/uv/genomics-reporting/StructureDefinition/somatic-predictive"/>
            </meta>
            <status value="final"/>
            <category>
               <coding>
                  <system value="http://terminology.hl7.org/CodeSystem/observation-category"/>
                  <code value="laboratory"/>
               </coding>
            </category>
            <code>
               <coding>
                  <system value="http://hl7.org/fhir/uv/genomics-reporting/CodeSystem/tbd-codes"/>
                  <code value="somatic-predictive"/>
                  <display value="Somatic variant predicted effect on Cancer medication"/>
               </coding>
            </code>
            <valueCodeableConcept>
               <text value="Responsive"/>
            </valueCodeableConcept>
            <subject>
               <reference value="urn:uuid:d0b4affa-91d6-46d1-af01-b30d9f16ef6d"/>
            </subject>
            <performer>
               <reference value="urn:uuid:a48256f8-db37-44e0-a0f6-d7af16c7c9ef"/>
            </performer>
            <method>
               <coding>
                  <system value="http://loinc.org"/>
                  <code value="LA26811-2"/>
                  <display value="Computational analysis"/>
               </coding>
            </method>
            <specimen>
               <reference value="urn:uuid:a5d6a6a9-4859-480e-85b2-56974fef3b9d"/>
            </specimen>
            <derivedFrom>
               <reference value="urn:uuid:16fdd5fc-e665-48af-99e4-48d603f3e12d"/>
            </derivedFrom>
            <component>
               <code>
                  <coding>
                     <system value="http://loinc.org"/>
                     <code value="93044-6"/>
                     <display value="Level of Evidence"/>
                  </coding>
               </code>
               <valueCodeableConcept>
                  <text value="AMP Guidelines"/>
               </valueCodeableConcept>
            </component>
            <component>
               <code>
                  <coding>
                     <system value="http://hl7.org/fhir/uv/genomics-reporting/CodeSystem/tbd-codes"/>
                     <code value="associated-cancer"/>
                  </coding>
               </code>
               <valueCodeableConcept>
                  <text value="Polycythemia vera (PV)"/>
               </valueCodeableConcept>
            </component>
            <component>
               <code>
                  <coding>
                     <system value="http://hl7.org/fhir/uv/genomics-reporting/CodeSystem/tbd-codes"/>
                     <code value="somatic-predictive-medication"/>
                  </coding>
               </code>
               <valueCodeableConcept>
                  <text value="TG02"/>
               </valueCodeableConcept>
            </component>
         </Observation>
      </resource>
      <request>
         <method value="POST"/>
         <url value="Observation"/>
      </request>
   </entry>

   <entry>
      <fullUrl value="urn:uuid:16fdd5fc-e665-48af-99e4-48d603f3e12f"/>
      <resource>
         <Observation xmlns="http://hl7.org/fhir">
            <meta>
               <profile value="http://hl7.org/fhir/uv/genomics-reporting/StructureDefinition/grouper"/>
            </meta>
            <status value="final"/>
            <category>
               <coding>
                  <system value="http://terminology.hl7.org/CodeSystem/observation-category"/>
                  <code value="laboratory"/>
               </coding>
            </category>
            <code>
               <text value="TBD-grouper"/>
            </code>
            <hasMember>
               <reference value="urn:uuid:16fdd5fc-e665-48af-99e4-48d603f3e12d"/>
               <display value="SNV analysis for JAK2 variant"/>
            </hasMember>
            <hasMember>
               <reference value="urn:uuid:772de7d7-e1bd-4183-bdb5-cea8eda317cd"/>
               <display value="SNV analysis for KDR variant"/>
            </hasMember>
            <hasMember>
               <reference value="urn:uuid:b33eb7ec-d83e-49d2-b0f3-729d024ebe01"/>
               <display value="SNV analysis for ERBB4 variant"/>
            </hasMember>

            <hasMember>
               <reference value="urn:uuid:40e85eda-4d31-4bd2-a5a0-c39d63f9824f"/>
               <display value="TMB value analysis"/>
            </hasMember>
            <hasMember>
               <reference value="urn:uuid:64b91716-6431-41bd-8fd4-7ac99bebdee9"/>
               <display value="MSI status analysis"/>
            </hasMember>

         </Observation>
      </resource>
      <request>
         <method value="POST"/>
         <url value="Observation"/>
      </request>
   </entry>

   <entry>
      <fullUrl value="urn:uuid:16fdd5fc-e665-48af-99e4-48d603f3e12e"/>
      <resource>
         <Observation xmlns="http://hl7.org/fhir">
            <meta>
               <profile value="http://hl7.org/fhir/uv/genomics-reporting/StructureDefinition/grouper"/>
            </meta>
            <status value="final"/>
            <category>
               <coding>
                  <system value="http://terminology.hl7.org/CodeSystem/observation-category"/>
                  <code value="laboratory"/>
               </coding>
            </category>
            <code>
               <text value="TBD-grouper"/>
            </code>
            <hasMember>
               <reference value="urn:uuid:1bf9642d-fd1c-4819-8c5d-44fae4bad524"/>
               <display value="Therapy match result 1"/>
            </hasMember>
            <hasMember>
               <reference value="urn:uuid:1301943b-55db-4adf-8355-3635f7268a1b"/>
               <display value="Therapy match result 2"/>
            </hasMember>
            <hasMember>
               <reference value="urn:uuid:05713d1c-0df5-46d5-a5a9-2085eef56c20"/>
               <display value="Therapy match result 3"/>
            </hasMember>
            <hasMember>
               <reference value="urn:uuid:294f1401-e2eb-4df1-b6d2-09e1b7a6eca4"/>
               <display value="Therapy match result 4"/>
            </hasMember>
         </Observation>
      </resource>
      <request>
         <method value="POST"/>
         <url value="Observation"/>
      </request>
   </entry>


   <entry>
      <fullUrl value="urn:uuid:ad7a499b-a43b-4cc8-bf46-cac62d9ecae5"/>
      <resource>
         <DiagnosticReport xmlns="http://hl7.org/fhir">
            <meta>
               <profile value="http://hl7.org/fhir/uv/genomics-reporting/StructureDefinition/genomics-report"/>
            </meta>
            <status value="final"/>
            <code>
               <coding>
                  <system value="http://loinc.org"/>
                  <code value="51969-4"/>
                  <display value="Genetic analysis report"/>
               </coding>
               <text value="Genetic analysis report"/>
            </code>
            <subject>
               <reference value="urn:uuid:d0b4affa-91d6-46d1-af01-b30d9f16ef6d"/>
            </subject>
            <performer>
               <reference value="urn:uuid:a48256f8-db37-44e0-a0f6-d7af16c7c9ef"/>
            </performer>
            <specimen>
               <reference value="urn:uuid:a5d6a6a9-4859-480e-85b2-56974fef3b9d"/>
            </specimen>

            <result>
               <reference value="urn:uuid:16fdd5fc-e665-48af-99e4-48d603f3e12f"/>
               <display value="Variants and other biomarker tests"/>
            </result>

            <result>
               <reference value="urn:uuid:16fdd5fc-e665-48af-99e4-48d603f3e12e"/>
               <display value="Therapy Match Results"/>
            </result>
            
         </DiagnosticReport>
      </resource>
      <request>
         <method value="POST"/>
         <url value="DiagnosticReport"/>
      </request>
   </entry>
</Bundle>   